# Spectral Data
f in Hz	A in dBV
# 0.000000	-14.472246
1.464844	-13.715150
2.929687	-13.129306
4.394531	-12.711931
5.859375	-12.351745
7.324219	-12.051559
8.789062	-11.882991
10.253906	-11.832293
11.718750	-11.861008
13.183594	-11.947687
14.648437	-12.096865
16.113281	-12.193285
17.578125	-12.315608
19.042969	-12.421349
20.507812	-12.507585
21.972656	-12.605832
23.437500	-12.694306
24.902344	-12.723711
26.367187	-12.656110
27.832031	-12.583388
29.296875	-12.521450
30.761719	-12.541533
32.226562	-12.549947
33.691406	-12.659363
35.156250	-12.795095
36.621094	-13.005041
38.085937	-13.222784
39.550781	-13.414935
41.015625	-13.563887
42.480469	-13.652142
43.945312	-13.660806
45.410156	-13.565727
46.875000	-13.429717
48.339844	-13.365344
49.804687	-13.369609
51.269531	-13.266984
52.734375	-13.005807
54.199219	-12.801509
55.664062	-12.704428
57.128906	-12.754598
58.593750	-12.955572
60.058594	-13.245775
61.523437	-13.571128
62.988281	-13.779158
64.453125	-13.829095
65.917969	-13.838595
67.382812	-13.833738
68.847656	-13.852408
70.312500	-13.899417
71.777344	-13.915622
73.242187	-13.921144
74.707031	-13.920335
76.171875	-13.906241
77.636719	-13.861846
79.101562	-13.852051
80.566406	-13.854199
82.031250	-13.907023
83.496094	-13.884085
84.960937	-13.846885
86.425781	-13.859969
87.890625	-13.898366
89.355469	-13.943939
90.820312	-14.046259
92.285156	-14.110721
93.750000	-14.088255
95.214844	-14.090161
96.679687	-14.079968
98.144531	-14.106771
99.609375	-14.177713
101.074219	-14.106068
102.539062	-14.063361
104.003906	-14.066006
105.468750	-14.022800
106.933594	-13.961132
108.398437	-13.876389
109.863281	-13.807784
111.328125	-13.775628
112.792969	-13.726837
114.257812	-13.724929
115.722656	-13.745522
117.187500	-13.768338
118.652344	-13.820338
120.117187	-13.943258
121.582031	-13.943801
123.046875	-13.959630
124.511719	-13.961651
125.976562	-13.953284
127.441406	-13.956034
128.906250	-13.952906
130.371094	-13.957179
131.835937	-13.962251
133.300781	-13.939907
134.765625	-13.830851
136.230469	-13.760000
137.695312	-13.738794
139.160156	-13.746260
140.625000	-13.747456
142.089844	-13.816362
143.554687	-13.890332
145.019531	-13.855231
146.484375	-13.892782
147.949219	-13.916643
149.414062	-13.928922
150.878906	-13.894791
152.343750	-13.761377
153.808594	-13.618207
155.273437	-13.527470
156.738281	-13.546582
158.203125	-13.679388
159.667969	-13.918880
161.132812	-14.176920
162.597656	-14.363547
164.062500	-14.357428
165.527344	-14.374561
166.992187	-14.381328
168.457031	-14.433811
169.921875	-14.402209
171.386719	-14.372265
172.851562	-14.344114
174.316406	-14.339114
175.781250	-14.318210
177.246094	-14.318267
178.710937	-14.268304
180.175781	-14.198775
181.640625	-14.165603
183.105469	-14.147137
184.570312	-14.160187
186.035156	-14.176114
187.500000	-14.197944
188.964844	-14.222711
190.429687	-14.160620
191.894531	-14.158902
193.359375	-14.162544
194.824219	-14.209255
196.289062	-14.237231
197.753906	-14.247287
199.218750	-14.275103
200.683594	-14.283701
202.148437	-14.211891
203.613281	-14.175528
205.078125	-14.224706
206.542969	-14.212605
208.007812	-14.184914
209.472656	-14.163442
210.937500	-14.212753
212.402344	-14.181197
213.867187	-14.111816
215.332031	-14.054536
216.796875	-14.012702
218.261719	-14.003967
219.726562	-13.989344
221.191406	-13.905605
222.656250	-13.827142
224.121094	-13.797388
225.585937	-13.785953
227.050781	-13.783350
228.515625	-13.803534
229.980469	-13.874480
231.445312	-13.886969
232.910156	-13.859754
234.375000	-13.854059
235.839844	-13.825003
237.304687	-13.804313
238.769531	-13.789026
240.234375	-13.751703
241.699219	-13.755780
243.164062	-13.756908
244.628906	-13.759390
246.093750	-13.839151
247.558594	-13.831507
249.023437	-13.806160
250.488281	-13.762224
251.953125	-13.695077
253.417969	-13.634521
254.882812	-13.599759
256.347656	-13.601001
257.812500	-13.688108
259.277344	-13.667717
260.742187	-13.692447
262.207031	-13.714842
263.671875	-13.729285
265.136719	-13.749149
266.601562	-13.733742
268.066406	-13.723687
269.531250	-13.682472
270.996094	-13.731207
272.460937	-13.784630
273.925781	-13.842201
275.390625	-13.883166
276.855469	-13.964767
278.320312	-13.988762
279.785156	-13.914072
281.250000	-13.943760
282.714844	-13.976818
284.179687	-14.004234
285.644531	-14.072645
287.109375	-14.124453
288.574219	-14.175985
290.039062	-14.243136
291.503906	-14.263202
292.968750	-14.287122
294.433594	-14.329676
295.898437	-14.319729
297.363281	-14.353934
298.828125	-14.360678
300.292969	-14.387561
301.757812	-14.448125
303.222656	-14.482469
304.687500	-14.541808
306.152344	-14.617523
307.617187	-14.585306
309.082031	-14.565741
310.546875	-14.571374
312.011719	-14.577444
313.476562	-14.617372
314.941406	-14.669946
316.406250	-14.638101
317.871094	-14.620137
319.335937	-14.626835
320.800781	-14.650683
322.265625	-14.699876
323.730469	-14.743645
325.195312	-14.819425
326.660156	-14.823358
328.125000	-14.878556
329.589844	-14.835055
331.054687	-14.805075
332.519531	-14.727341
333.984375	-14.664889
335.449219	-14.664352
336.914062	-14.720953
338.378906	-14.771828
339.843750	-14.800535
341.308594	-14.832237
342.773437	-14.893811
344.238281	-14.945585
345.703125	-14.919939
347.167969	-14.937692
348.632812	-14.912841
350.097656	-14.783095
351.562500	-14.730253
353.027344	-14.590169
354.492187	-14.494138
355.957031	-14.439044
357.421875	-14.470155
358.886719	-14.592893
360.351562	-14.744360
361.816406	-14.832797
363.281250	-14.938874
364.746094	-14.897432
366.210937	-14.909010
367.675781	-14.915671
369.140625	-14.900386
370.605469	-14.884028
372.070312	-14.871355
373.535156	-14.778120
375.000000	-14.719146
376.464844	-14.690591
377.929687	-14.732923
379.394531	-14.738871
380.859375	-14.688130
382.324219	-14.695948
383.789062	-14.745035
385.253906	-14.792439
386.718750	-14.762847
388.183594	-14.729141
389.648437	-14.660487
391.113281	-14.636413
392.578125	-14.572125
394.042969	-14.485623
395.507812	-14.368681
396.972656	-14.283708
398.437500	-14.220270
399.902344	-14.181199
401.367187	-14.136996
402.832031	-14.158745
404.296875	-14.180610
405.761719	-14.200810
407.226562	-14.204477
408.691406	-14.205798
410.156250	-14.232037
411.621094	-14.295087
413.085937	-14.331145
414.550781	-14.312742
416.015625	-14.334266
417.480469	-14.303605
418.945312	-14.295284
420.410156	-14.348007
421.875000	-14.350080
423.339844	-14.355158
424.804687	-14.352619
426.269531	-14.334253
427.734375	-14.375488
429.199219	-14.392714
430.664062	-14.439088
432.128906	-14.433369
433.593750	-14.389800
435.058594	-14.426708
436.523437	-14.351801
437.988281	-14.289873
439.453125	-14.317442
440.917969	-14.306498
442.382812	-14.288815
443.847656	-14.303995
445.312500	-14.294698
446.777344	-14.278113
448.242187	-14.295831
449.707031	-14.292109
451.171875	-14.268464
452.636719	-14.229825
454.101562	-14.138151
455.566406	-14.112076
457.031250	-14.158989
458.496094	-14.210951
459.960937	-14.263771
461.425781	-14.275938
462.890625	-14.268241
464.355469	-14.288991
465.820312	-14.289347
467.285156	-14.243816
468.750000	-14.233391
470.214844	-14.255288
471.679687	-14.254456
473.144531	-14.208231
474.609375	-14.190629
476.074219	-14.216817
477.539062	-14.301161
479.003906	-14.299757
480.468750	-14.317415
481.933594	-14.353203
483.398437	-14.397532
484.863281	-14.471675
486.328125	-14.573673
487.792969	-14.588167
489.257812	-14.541261
490.722656	-14.559638
492.187500	-14.604374
493.652344	-14.576382
495.117187	-14.568010
496.582031	-14.569625
498.046875	-14.561544
499.511719	-14.595714
500.976562	-14.578599
502.441406	-14.574581
503.906250	-14.584228
505.371094	-14.546370
506.835937	-14.532048
508.300781	-14.569504
509.765625	-14.607925
511.230469	-14.605508
512.695312	-14.607608
514.160156	-14.616258
515.625000	-14.635739
517.089844	-14.603965
518.554687	-14.581887
520.019531	-14.574863
521.484375	-14.589211
522.949219	-14.584652
524.414062	-14.577485
525.878906	-14.560755
527.343750	-14.525375
528.808594	-14.460016
530.273437	-14.447794
531.738281	-14.407752
533.203125	-14.383000
534.667969	-14.375898
536.132812	-14.360669
537.597656	-14.378545
539.062500	-14.466784
540.527344	-14.464047
541.992187	-14.477516
543.457031	-14.494808
544.921875	-14.548449
546.386719	-14.594094
547.851562	-14.605837
549.316406	-14.587071
550.781250	-14.602080
552.246094	-14.556641
553.710937	-14.474311
555.175781	-14.448780
556.640625	-14.468403
558.105469	-14.541397
559.570312	-14.631281
561.035156	-14.712073
562.500000	-14.719731
563.964844	-14.765150
565.429687	-14.850852
566.894531	-14.827365
568.359375	-14.816349
569.824219	-14.830151
571.289062	-14.810452
572.753906	-14.834560
574.218750	-14.878589
575.683594	-14.895082
577.148437	-14.917731
578.613281	-14.847437
580.078125	-14.870186
581.542969	-14.880820
583.007812	-14.922506
584.472656	-14.941921
585.937500	-14.978648
587.402344	-15.005954
588.867187	-14.978066
590.332031	-15.023580
591.796875	-15.038083
593.261719	-15.054186
594.726562	-15.020459
596.191406	-14.983878
597.656250	-14.966071
599.121094	-14.951576
600.585937	-14.968618
602.050781	-14.945439
603.515625	-14.875694
604.980469	-14.870280
606.445312	-14.892463
607.910156	-14.869626
609.375000	-14.848451
610.839844	-14.854226
612.304687	-14.871084
613.769531	-14.888235
615.234375	-14.886618
616.699219	-14.860370
618.164062	-14.829230
619.628906	-14.827373
621.093750	-14.867782
622.558594	-14.882605
624.023437	-14.940044
625.488281	-14.984671
626.953125	-14.936412
628.417969	-14.935829
629.882812	-14.940011
631.347656	-14.882903
632.812500	-14.841712
634.277344	-14.810049
635.742187	-14.778032
637.207031	-14.811120
638.671875	-14.879104
640.136719	-14.920117
641.601562	-14.935394
643.066406	-14.922655
644.531250	-14.962701
645.996094	-14.952624
647.460937	-14.968647
648.925781	-14.899739
650.390625	-14.851191
651.855469	-14.722498
653.320312	-14.638229
654.785156	-14.617185
656.250000	-14.604039
657.714844	-14.600388
659.179687	-14.634962
660.644531	-14.654387
662.109375	-14.638403
663.574219	-14.607507
665.039062	-14.544592
666.503906	-14.538392
667.968750	-14.509831
669.433594	-14.532928
670.898437	-14.510105
672.363281	-14.509254
673.828125	-14.537345
675.292969	-14.530022
676.757812	-14.545779
678.222656	-14.591708
679.687500	-14.628887
681.152344	-14.670962
682.617187	-14.671311
684.082031	-14.638264
685.546875	-14.670156
687.011719	-14.688385
688.476562	-14.763632
689.941406	-14.787249
691.406250	-14.770550
692.871094	-14.759690
694.335937	-14.762108
695.800781	-14.787316
697.265625	-14.813936
698.730469	-14.812335
700.195312	-14.818262
701.660156	-14.731324
703.125000	-14.735722
704.589844	-14.774703
706.054687	-14.858165
707.519531	-14.862960
708.984375	-14.864845
710.449219	-14.873354
711.914062	-14.929056
713.378906	-14.943675
714.843750	-14.925793
716.308594	-14.885613
717.773437	-14.883101
719.238281	-14.943757
720.703125	-14.924190
722.167969	-14.913468
723.632812	-14.935647
725.097656	-14.973304
726.562500	-15.065212
728.027344	-15.061415
729.492187	-15.031683
730.957031	-15.050895
732.421875	-15.093124
733.886719	-15.045974
735.351562	-15.032865
736.816406	-15.063021
738.281250	-15.108662
739.746094	-15.061945
741.210937	-15.018474
742.675781	-14.998094
744.140625	-15.037228
745.605469	-15.086741
747.070312	-15.068665
748.535156	-15.034832
750.000000	-15.001183
751.464844	-14.902511
752.929687	-14.810312
754.394531	-14.719863
755.859375	-14.747914
757.324219	-14.822195
758.789062	-14.978738
760.253906	-15.141324
761.718750	-15.161706
763.183594	-15.185818
764.648437	-15.224233
766.113281	-15.185127
767.578125	-15.179259
769.042969	-15.140036
770.507812	-15.144105
771.972656	-15.195583
773.437500	-15.212169
774.902344	-15.156871
776.367187	-15.187809
777.832031	-15.227097
779.296875	-15.190540
780.761719	-15.160094
782.226562	-15.189456
783.691406	-15.209133
785.156250	-15.151982
786.621094	-15.156044
788.085937	-15.166241
789.550781	-15.153115
791.015625	-15.113948
792.480469	-15.060141
793.945312	-15.010825
795.410156	-14.974810
796.875000	-14.969426
798.339844	-14.924914
799.804687	-14.894566
801.269531	-14.912779
802.734375	-14.945656
804.199219	-14.967516
805.664062	-14.994414
807.128906	-15.017585
808.593750	-15.031738
810.058594	-15.002797
811.523437	-15.005220
812.988281	-15.067136
814.453125	-15.158498
815.917969	-15.176691
817.382812	-15.199013
818.847656	-15.227321
820.312500	-15.239480
821.777344	-15.176809
823.242187	-15.177764
824.707031	-15.231854
826.171875	-15.271386
827.636719	-15.306564
829.101562	-15.321046
830.566406	-15.403103
832.031250	-15.447783
833.496094	-15.459748
834.960937	-15.471485
836.425781	-15.448627
837.890625	-15.433152
839.355469	-15.397482
840.820312	-15.395120
842.285156	-15.402008
843.750000	-15.403833
845.214844	-15.357456
846.679687	-15.356693
848.144531	-15.342523
849.609375	-15.298907
851.074219	-15.154114
852.539062	-15.077433
854.003906	-15.021273
855.468750	-15.046676
856.933594	-15.111691
858.398437	-15.195954
859.863281	-15.262489
861.328125	-15.348960
862.792969	-15.351171
864.257812	-15.387859
865.722656	-15.452435
867.187500	-15.397131
868.652344	-15.356744
870.117187	-15.357652
871.582031	-15.371698
873.046875	-15.396489
874.511719	-15.429298
875.976562	-15.455403
877.441406	-15.402126
878.906250	-15.377675
880.371094	-15.350168
881.835937	-15.306791
883.300781	-15.252884
884.765625	-15.261337
886.230469	-15.281434
887.695312	-15.275408
889.160156	-15.247520
890.625000	-15.179953
892.089844	-15.167224
893.554687	-15.190860
895.019531	-15.255255
896.484375	-15.293774
897.949219	-15.301737
899.414062	-15.287864
900.878906	-15.325902
902.343750	-15.311936
903.808594	-15.304578
905.273437	-15.249774
906.738281	-15.241011
908.203125	-15.217416
909.667969	-15.228876
911.132812	-15.241107
912.597656	-15.248321
914.062500	-15.177168
915.527344	-15.174051
916.992187	-15.116615
918.457031	-15.108701
919.921875	-15.102402
921.386719	-15.048577
922.851562	-15.021836
924.316406	-15.027395
925.781250	-14.958275
927.246094	-14.937180
928.710937	-14.956937
930.175781	-14.988891
931.640625	-15.056458
933.105469	-15.019367
934.570312	-15.002623
936.035156	-14.974749
937.500000	-14.980125
938.964844	-14.947582
940.429687	-14.932065
941.894531	-14.898926
943.359375	-14.850350
944.824219	-14.871073
946.289062	-14.965951
947.753906	-15.028143
949.218750	-15.075513
950.683594	-15.039570
952.148437	-15.008183
953.613281	-14.909490
955.078125	-14.912118
956.542969	-14.928312
958.007812	-14.943382
959.472656	-15.014142
960.937500	-15.087992
962.402344	-15.169458
963.867187	-15.239845
965.332031	-15.265679
966.796875	-15.262414
968.261719	-15.258513
969.726562	-15.226130
971.191406	-15.228080
972.656250	-15.219504
974.121094	-15.230701
975.585937	-15.210310
977.050781	-15.181025
978.515625	-15.162549
979.980469	-15.200241
981.445312	-15.239871
982.910156	-15.253564
984.375000	-15.291048
985.839844	-15.360275
987.304687	-15.357789
988.769531	-15.297949
990.234375	-15.258385
991.699219	-15.235794
993.164062	-15.248200
994.628906	-15.220354
996.093750	-15.221102
997.558594	-15.215402

